3,    channel 3 SRF extracted from pub.rar (FY3D_MERSI_SRF_CH03_Pub.txt) (received October 2018)
Number of data points:
171
Wavenumber (cm-1)   Filter response
    14347.202300       0.009667
    14357.501800       0.009667
    14367.816100       0.010741
    14378.145200       0.013963
    14388.489200       0.011815
    14398.848100       0.013963
    14409.221900       0.016112
    14419.610700       0.017186
    14430.014400       0.018260
    14440.433200       0.020408
    14450.867100       0.021482
    14461.316000       0.024705
    14471.780000       0.031149
    14482.259200       0.031149
    14492.753600       0.031149
    14503.263200       0.034372
    14513.788100       0.038668
    14524.328200       0.042965
    14534.883700       0.047261
    14545.454500       0.054780
    14556.040800       0.062299
    14566.642400       0.070892
    14577.259500       0.078410
    14587.892000       0.088077
    14598.540100       0.098818
    14609.203800       0.111708
    14619.883000       0.124597
    14630.577900       0.140709
    14641.288400       0.158969
    14652.014700       0.177229
    14662.756600       0.198711
    14673.514300       0.225564
    14684.287800       0.256713
    14695.077100       0.290011
    14705.882400       0.310419
    14716.703500       0.344791
    14727.540500       0.381310
    14738.393500       0.402793
    14749.262500       0.451128
    14760.147600       0.474758
    14771.048700       0.511278
    14781.966000       0.555317
    14792.899400       0.584318
    14803.849000       0.607948
    14814.814800       0.638024
    14825.796900       0.663802
    14836.795300       0.683136
    14847.809900       0.701396
    14858.841000       0.736842
    14869.888500       0.755102
    14880.952400       0.769066
    14892.032800       0.789474
    14903.129700       0.785177
    14914.243100       0.784103
    14925.373100       0.793770
    14936.519800       0.820623
    14947.683100       0.809882
    14958.863100       0.810956
    14970.059900       0.828142
    14981.273400       0.842105
    14992.503700       0.823845
    15003.750900       0.823845
    15015.015000       0.825994
    15026.296000       0.829216
    15037.594000       0.817401
    15048.909000       0.817401
    15060.241000       0.818475
    15071.590100       0.823845
    15082.956300       0.836735
    15094.339600       0.833512
    15105.740200       0.831364
    15117.158000       0.815252
    15128.593000       0.834586
    15140.045400       0.821697
    15151.515200       0.822771
    15163.002300       0.834586
    15174.506800       0.839957
    15186.028900       0.861439
    15197.568400       0.862513
    15209.125500       0.889366
    15220.700200       0.880773
    15232.292500       0.870032
    15243.902400       0.892589
    15255.530100       0.897959
    15267.175600       0.892589
    15278.838800       0.914071
    15290.519900       0.939850
    15302.218800       0.940924
    15313.935700       0.948443
    15325.670500       0.965628
    15337.423300       0.965628
    15349.194200       0.968851
    15360.983100       0.962406
    15372.790200       0.970999
    15384.615400       0.970999
    15396.458800       0.984962
    15408.320500       0.991407
    15420.200500       0.988185
    15432.098800       0.989259
    15444.015400       1.000000
    15455.950500       0.966702
    15467.904100       0.944146
    15479.876200       0.947368
    15491.866800       0.949517
    15503.876000       0.926960
    15515.903800       0.909774
    15527.950300       0.895811
    15540.015500       0.897959
    15552.099500       0.877551
    15564.202300       0.846402
    15576.324000       0.830290
    15588.464500       0.814178
    15600.624000       0.789474
    15612.802500       0.780881
    15625.000000       0.767991
    15637.216600       0.755102
    15649.452300       0.738990
    15661.707100       0.717508
    15673.981200       0.688507
    15686.274500       0.676692
    15698.587100       0.659506
    15710.919100       0.646617
    15723.270400       0.627282
    15735.641200       0.615467
    15748.031500       0.613319
    15760.441300       0.590763
    15772.870700       0.589689
    15785.319700       0.576799
    15797.788300       0.564984
    15810.276700       0.548872
    15822.784800       0.531686
    15835.312700       0.523093
    15847.860500       0.503759
    15860.428200       0.501611
    15873.015900       0.493018
    15885.623500       0.464017
    15898.251200       0.448980
    15910.899000       0.437164
    15923.566900       0.414608
    15936.255000       0.383459
    15948.963300       0.365199
    15961.691900       0.336198
    15974.440900       0.312567
    15987.210200       0.291085
    16000.000000       0.264232
    16012.810200       0.237379
    16025.641000       0.211600
    16038.492400       0.193340
    16051.364400       0.170784
    16064.257000       0.149302
    16077.170400       0.135338
    16090.104600       0.123523
    16103.059600       0.107411
    16116.035500       0.095596
    16129.032300       0.085929
    16142.050000       0.073040
    16155.088900       0.063373
    16168.148700       0.056928
    16181.229800       0.049409
    16194.332000       0.041890
    16207.455400       0.036520
    16220.600200       0.030075
    16233.766200       0.026853
    16246.953700       0.024705
    16260.162600       0.018260
    16273.393000       0.016112
    16286.645000       0.015038
    16299.918500       0.011815
    16313.213700       0.009667
    16326.530600       0.009667
    16339.869300       0.000000
