25,    channel 25 SRF extracted from pub.rar (FY3D_MERSI_SRF_CH25_Pub.txt) (received October 2018)
Number of data points:
311
Wavenumber (cm-1)   Filter response
      739.098300       0.000000
      739.645000       0.000000
      740.192500       0.000000
      740.740700       0.000000
      741.289800       0.000000
      741.839800       0.000000
      742.390500       0.017501
      742.942100       0.020939
      743.494400       0.021486
      744.047600       0.015861
      744.601600       0.010235
      745.156500       0.012814
      745.712200       0.012657
      746.268700       0.000000
      746.826000       0.010391
      747.384200       0.013751
      747.943200       0.013360
      748.503000       0.012970
      749.063700       0.013985
      749.625200       0.015392
      750.187500       0.015157
      750.750800       0.014923
      751.314800       0.013517
      751.879700       0.014845
      752.445400       0.015236
      753.012000       0.015626
      753.579500       0.016017
      754.147800       0.017658
      754.717000       0.015704
      755.287000       0.013751
      755.857900       0.011798
      756.429700       0.009845
      757.002300       0.000000
      757.575800       0.000000
      758.150100       0.000000
      758.725300       0.000000
      759.301400       0.000000
      759.878400       0.000000
      760.456300       0.000000
      761.035000       0.010860
      761.614600       0.012423
      762.195100       0.013985
      762.776500       0.015314
      763.358800       0.014689
      763.941900       0.012892
      764.526000       0.012501
      765.110900       0.013204
      765.696800       0.011876
      766.283500       0.010548
      766.871200       0.009219
      767.459700       0.000000
      768.049200       0.000000
      768.639500       0.000000
      769.230800       0.009376
      769.822900       0.009454
      770.416000       0.015548
      771.010000       0.021642
      771.604900       0.023049
      772.200800       0.025393
      772.797500       0.030393
      773.395200       0.027502
      773.993800       0.025002
      774.593300       0.026330
      775.193800       0.025002
      775.795200       0.022033
      776.397500       0.022658
      777.000800       0.024611
      777.605000       0.023049
      778.210100       0.025002
      778.816200       0.026486
      779.423200       0.026330
      780.031200       0.025705
      780.640100       0.028987
      781.250000       0.030627
      781.860800       0.035315
      782.472600       0.040628
      783.085400       0.045472
      783.699100       0.049379
      784.313700       0.054848
      784.929400       0.060630
      785.546000       0.068677
      786.163500       0.076725
      786.782100       0.089460
      787.401600       0.104383
      788.022100       0.119306
      788.643500       0.136183
      789.266000       0.153449
      789.889400       0.170795
      790.513800       0.184311
      791.139200       0.203844
      791.765600       0.219861
      792.393000       0.236894
      793.021400       0.252285
      793.650800       0.269943
      794.281200       0.282600
      794.912600       0.298383
      795.544900       0.314868
      796.178300       0.332370
      796.812700       0.351121
      797.448200       0.372295
      798.084600       0.389952
      798.722000       0.411673
      799.360500       0.426830
      800.000000       0.440191
      800.640500       0.455426
      801.282100       0.470896
      801.924600       0.482225
      802.568200       0.497226
      803.212900       0.509337
      803.858500       0.522619
      804.505200       0.535198
      805.153000       0.546136
      805.801800       0.561138
      806.451600       0.573639
      807.102500       0.581764
      807.754400       0.592234
      808.407400       0.605516
      809.061500       0.612704
      809.716600       0.625908
      810.372800       0.634893
      811.030000       0.644972
      811.688300       0.653801
      812.347700       0.660442
      813.008100       0.667474
      813.669700       0.674896
      814.332200       0.677865
      814.995900       0.684272
      815.660700       0.692632
      816.326500       0.698961
      816.993500       0.706149
      817.661500       0.715525
      818.330600       0.720447
      819.000800       0.727479
      819.672100       0.734511
      820.344500       0.740995
      821.018100       0.747871
      821.692700       0.755372
      822.368400       0.756153
      823.045300       0.756309
      823.723200       0.761466
      824.402300       0.759512
      825.082500       0.759512
      825.763800       0.768966
      826.446300       0.777170
      827.129900       0.778186
      827.814600       0.787249
      828.500400       0.791937
      829.187400       0.794750
      829.875500       0.801078
      830.564800       0.807719
      831.255200       0.809985
      831.946800       0.814907
      832.639500       0.815689
      833.333300       0.815767
      834.028400       0.819752
      834.724500       0.824361
      835.421900       0.826002
      836.120400       0.832096
      836.820100       0.836315
      837.520900       0.838659
      838.223000       0.841785
      838.926200       0.846082
      839.630600       0.847722
      840.336100       0.852567
      841.042900       0.859598
      841.750800       0.865771
      842.460000       0.869599
      843.170300       0.875459
      843.881900       0.879444
      844.594600       0.882413
      845.308500       0.885850
      846.023700       0.894210
      846.740100       0.900383
      847.457600       0.906477
      848.176400       0.913782
      848.896400       0.924643
      849.617700       0.932690
      850.340100       0.940972
      851.063800       0.950582
      851.788800       0.957497
      852.514900       0.963357
      853.242300       0.971873
      853.971000       0.983280
      854.700900       0.991562
      855.432000       0.995547
      856.164400       1.000000
      856.898000       0.998906
      857.632900       0.993828
      858.369100       0.984139
      859.106500       0.979764
      859.845200       0.968123
      860.585200       0.957809
      861.326400       0.946793
      862.069000       0.934214
      862.812800       0.913900
      863.557900       0.897805
      864.304200       0.871943
      865.051900       0.843113
      865.800900       0.816314
      866.551100       0.788343
      867.302700       0.751856
      868.055600       0.723182
      868.809700       0.693726
      869.565200       0.659583
      870.322000       0.625908
      871.080100       0.598250
      871.839600       0.557856
      872.600300       0.520978
      873.362400       0.485116
      874.125900       0.448707
      874.890600       0.410423
      875.656700       0.380498
      876.424200       0.349480
      877.193000       0.318072
      877.963100       0.288694
      878.734600       0.260255
      879.507500       0.235331
      880.281700       0.206501
      881.057300       0.186186
      881.834200       0.166185
      882.612500       0.149113
      883.392200       0.134971
      884.173300       0.122236
      884.955800       0.107704
      885.739600       0.096687
      886.524800       0.085124
      887.311400       0.073014
      888.099500       0.065435
      888.888900       0.057856
      889.679700       0.050277
      890.472000       0.042581
      891.265600       0.034768
      892.060700       0.028518
      892.857100       0.024611
      893.655000       0.020783
      894.454400       0.020548
      895.255100       0.023361
      896.057300       0.025627
      896.861000       0.027111
      897.666100       0.030080
      898.472600       0.031018
      899.280600       0.025158
      900.090000       0.023674
      900.900900       0.022189
      901.713300       0.020705
      902.527100       0.017970
      903.342400       0.020314
      904.159100       0.018830
      904.977400       0.017345
      905.797100       0.016954
      906.618300       0.017970
      907.441000       0.017814
      908.265200       0.023908
      909.090900       0.025549
      909.918100       0.028205
      910.746800       0.029221
      911.577000       0.031643
      912.408800       0.025705
      913.242000       0.022580
      914.076800       0.018361
      914.913100       0.017189
      915.750900       0.013829
      916.590300       0.014220
      917.431200       0.016251
      918.273600       0.019142
      919.117600       0.018205
      919.963200       0.019689
      920.810300       0.019533
      921.659000       0.019377
      922.509200       0.017345
      923.361000       0.017580
      924.214400       0.017580
      925.069400       0.017580
      925.925900       0.017580
      926.784100       0.017580
      927.643800       0.017580
      928.505100       0.017580
      929.368000       0.018751
      930.232600       0.018439
      931.098700       0.018751
      931.966400       0.018517
      932.835800       0.018283
      933.706800       0.016876
      934.579400       0.017736
      935.453700       0.017970
      936.329600       0.018986
      937.207100       0.019533
      938.086300       0.021017
      938.967100       0.021720
      939.849600       0.022424
      940.733800       0.022892
      941.619600       0.023517
      942.507100       0.023205
      943.396200       0.022892
      944.287100       0.022580
      945.179600       0.022267
      946.073800       0.022267
      946.969700       0.022267
      947.867300       0.022267
      948.766600       0.022267
      949.667600       0.022267
      950.570300       0.021095
      951.474800       0.019220
      952.381000       0.019064
      953.288800       0.018908
      954.198500       0.018751
      955.109800       0.019767
      956.022900       0.021486
      956.937800       0.020314
      957.854400       0.020236
      958.772800       0.000000
