14,    channel 14 SRF extracted from pub.rar (FY3D_MERSI_SRF_CH14_Pub.txt) (received October 2018)
Number of data points:
110
Wavenumber (cm-1)   Filter response
    12936.610600       0.000000
    12944.983800       0.009571
    12953.367900       0.010391
    12961.762800       0.011211
    12970.168600       0.012305
    12978.585300       0.013399
    12987.013000       0.014766
    12995.451600       0.015860
    13003.901200       0.018048
    13012.361700       0.019688
    13020.833300       0.021876
    13029.316000       0.024610
    13037.809600       0.027892
    13046.314400       0.030900
    13054.830300       0.035548
    13063.357300       0.040470
    13071.895400       0.045939
    13080.444700       0.054416
    13089.005200       0.062346
    13097.576900       0.072464
    13106.159900       0.085863
    13114.754100       0.102270
    13123.359600       0.122505
    13131.976400       0.147115
    13140.604500       0.178562
    13149.243900       0.213290
    13157.894700       0.253760
    13166.556900       0.298879
    13175.230600       0.350014
    13183.915600       0.404430
    13192.612100       0.462127
    13201.320100       0.519278
    13210.039600       0.584359
    13218.770700       0.644791
    13227.513200       0.697840
    13236.267400       0.748154
    13245.033100       0.800656
    13253.810500       0.845502
    13262.599500       0.879683
    13271.400100       0.910036
    13280.212500       0.929724
    13289.036500       0.949686
    13297.872300       0.961170
    13306.719900       0.987968
    13315.579200       0.980585
    13324.450400       0.966913
    13333.333300       0.988789
    13342.228200       0.992070
    13351.134800       0.992343
    13360.053400       0.992070
    13368.984000       0.993711
    13377.926400       0.998086
    13386.880900       0.996719
    13395.847300       0.998359
    13404.825700       1.000000
    13413.816200       0.996719
    13422.818800       0.998633
    13431.833400       1.000000
    13440.860200       0.998906
    13449.899100       0.993711
    13458.950200       0.993984
    13468.013500       0.990156
    13477.088900       0.977030
    13486.176700       0.953514
    13495.276700       0.950232
    13504.388900       0.922341
    13513.513500       0.894176
    13522.650400       0.854799
    13531.799700       0.812961
    13540.961400       0.753897
    13550.135500       0.716161
    13559.322000       0.663112
    13568.521000       0.597484
    13577.732500       0.551818
    13586.956500       0.497676
    13596.193100       0.449822
    13605.442200       0.401422
    13614.703900       0.358491
    13623.978200       0.317473
    13633.265200       0.283019
    13642.564800       0.251299
    13651.877100       0.223134
    13661.202200       0.197430
    13670.540000       0.174460
    13679.890600       0.154225
    13689.253900       0.136998
    13698.630100       0.120317
    13708.019200       0.106371
    13717.421100       0.093519
    13726.836000       0.081761
    13736.263700       0.071643
    13745.704500       0.062346
    13755.158200       0.054416
    13764.624900       0.047307
    13774.104700       0.042111
    13783.597500       0.036369
    13793.103400       0.032267
    13802.622500       0.028712
    13812.154700       0.025704
    13821.700100       0.023243
    13831.258600       0.020782
    13840.830400       0.018868
    13850.415500       0.016680
    13860.013900       0.015313
    13869.625500       0.013672
    13879.250500       0.012579
    13888.888900       0.011211
    13898.540700       0.010391
    13908.205800       0.009571
    13917.884500       0.000000
