13,    channel 13 SRF extracted from pub.rar (FY3D_MERSI_SRF_CH13_Pub.txt) (received October 2018)
Number of data points:
114
Wavenumber (cm-1)   Filter response
    13559.322000       0.009665
    13568.521000       0.010269
    13577.732500       0.010873
    13586.956500       0.011175
    13596.193100       0.012081
    13605.442200       0.012685
    13614.703900       0.013893
    13623.978200       0.015101
    13633.265200       0.016611
    13642.564800       0.018121
    13651.877100       0.019632
    13661.202200       0.020840
    13670.540000       0.023558
    13679.890600       0.025974
    13689.253900       0.028994
    13698.630100       0.032015
    13708.019200       0.036545
    13717.421100       0.040773
    13726.836000       0.047116
    13736.263700       0.053156
    13745.704500       0.062519
    13755.158200       0.071882
    13764.624900       0.086077
    13774.104700       0.100272
    13783.597500       0.118997
    13793.103400       0.137421
    13802.622500       0.163999
    13812.154700       0.190577
    13821.700100       0.226518
    13831.258600       0.262458
    13840.830400       0.310178
    13850.415500       0.357596
    13860.013900       0.411960
    13869.625500       0.466324
    13879.250500       0.520689
    13888.888900       0.574751
    13898.540700       0.625793
    13908.205800       0.676533
    13917.884500       0.723950
    13927.576600       0.771368
    13937.282200       0.799456
    13947.001400       0.827545
    13956.734100       0.837813
    13966.480400       0.848082
    13976.240400       0.871338
    13986.014000       0.894292
    13995.801300       0.903654
    14005.602200       0.912715
    14015.417000       0.917850
    14025.245400       0.922984
    14035.087700       0.932951
    14044.943800       0.942918
    14054.813800       0.950468
    14064.697600       0.957717
    14074.595400       0.962549
    14084.507000       0.967381
    14094.432700       0.976744
    14104.372400       0.985805
    14114.326000       0.993053
    14124.293800       1.000000
    14134.275600       0.996376
    14144.271600       0.992449
    14154.281700       0.986409
    14164.305900       0.980066
    14174.344400       0.955905
    14184.397200       0.931441
    14194.464200       0.921474
    14204.545500       0.911205
    14214.641100       0.881305
    14224.751100       0.851102
    14234.875400       0.808517
    14245.014200       0.765932
    14255.167500       0.718514
    14265.335200       0.670794
    14275.517500       0.623377
    14285.714300       0.575657
    14295.925700       0.532166
    14306.151600       0.488674
    14316.392300       0.448505
    14326.647600       0.408336
    14336.917600       0.369677
    14347.202300       0.331018
    14357.501800       0.302930
    14367.816100       0.274841
    14378.145200       0.247961
    14388.489200       0.221081
    14398.848100       0.198429
    14409.221900       0.175778
    14419.610700       0.157052
    14430.014400       0.138025
    14440.433200       0.122320
    14450.867100       0.106614
    14461.316000       0.093929
    14471.780000       0.081244
    14482.259200       0.072184
    14492.753600       0.063123
    14503.263200       0.055874
    14513.788100       0.048324
    14524.328200       0.042283
    14534.883700       0.035941
    14545.454500       0.032317
    14556.040800       0.028692
    14566.642400       0.025370
    14577.259500       0.022048
    14587.892000       0.019632
    14598.540100       0.017215
    14609.203800       0.015705
    14619.883000       0.013893
    14630.577900       0.012383
    14641.288400       0.010873
    14652.014700       0.009967
    14662.756600       0.009061
    14673.514300       0.000000
    14684.287800       0.000000
