18,    channel 18 SRF extracted from pub.rar (FY3D_MERSI_SRF_CH18_Pub.txt) (received October 2018)
Number of data points:
98
Wavenumber (cm-1)   Filter response
    10080.645200       0.013600
    10101.010100       0.012932
    10111.223500       0.014868
    10121.457500       0.026795
    10131.712300       0.018373
    10141.987800       0.023856
    10152.284300       0.028107
    10162.601600       0.025808
    10172.940000       0.043862
    10183.299400       0.047346
    10193.679900       0.052550
    10204.081600       0.062256
    10214.504600       0.069749
    10224.948900       0.075380
    10235.414500       0.094654
    10245.901600       0.118586
    10256.410300       0.157939
    10266.940500       0.182539
    10277.492300       0.216270
    10288.065800       0.268845
    10298.661200       0.315054
    10309.278400       0.382375
    10319.917400       0.440017
    10330.578500       0.501010
    10341.261600       0.580417
    10351.966900       0.664787
    10362.694300       0.737093
    10373.444000       0.809585
    10384.216000       0.856622
    10395.010400       0.891514
    10405.827300       0.931122
    10416.666700       0.953763
    10427.528700       0.939869
    10438.413400       0.968502
    10449.320800       0.957527
    10460.251000       0.948896
    10471.204200       0.933719
    10482.180300       0.916582
    10493.179400       0.923760
    10504.201700       0.924133
    10515.247100       0.896973
    10526.315800       0.918221
    10537.407800       0.909208
    10548.523200       0.918591
    10559.662100       0.910734
    10570.824500       0.913431
    10582.010600       0.924980
    10593.220300       0.929208
    10604.453900       0.947699
    10615.711300       0.935529
    10626.992600       0.936628
    10638.297900       0.962368
    10649.627300       0.974527
    10660.980800       0.980169
    10672.358600       0.975775
    10683.760700       0.993606
    10695.187200       1.000000
    10706.638100       0.988348
    10718.113600       0.990325
    10729.613700       0.987237
    10741.138600       0.995227
    10752.688200       0.974175
    10764.262600       0.975657
    10775.862100       0.963837
    10787.486500       0.951014
    10799.136100       0.953018
    10810.810800       0.945034
    10822.510800       0.938012
    10834.236200       0.928088
    10845.987000       0.909207
    10857.763300       0.883103
    10869.565200       0.846554
    10881.392800       0.794432
    10893.246200       0.738315
    10905.125400       0.672801
    10917.030600       0.606818
    10928.961700       0.548213
    10940.919000       0.488456
    10952.902500       0.440843
    10964.912300       0.396308
    10976.948400       0.357374
    10989.011000       0.322645
    11001.100100       0.291702
    11013.215900       0.258045
    11025.358300       0.223296
    11037.527600       0.189474
    11049.723800       0.150497
    11061.946900       0.120117
    11074.197100       0.094483
    11086.474500       0.072968
    11098.779100       0.054433
    11111.111100       0.039658
    11123.470500       0.028374
    11135.857500       0.024506
    11148.272000       0.019439
    11160.714300       0.012922
    11173.184400       0.012115
    11198.208300       0.009420
