2,    channel 2 SRF extracted from pub.rar (FY3D_MERSI_SRF_CH02_Pub.txt) (received October 2018)
Number of data points:
174
Wavenumber (cm-1)   Filter response
    16750.418800       0.010493
    16764.459300       0.009444
    16778.523500       0.010493
    16792.611300       0.011543
    16806.722700       0.013641
    16820.857900       0.014690
    16835.016800       0.014690
    16849.199700       0.017838
    16863.406400       0.017838
    16877.637100       0.022036
    16891.891900       0.022036
    16906.170800       0.025184
    16920.473800       0.026233
    16934.801000       0.030430
    16949.152500       0.033578
    16963.528400       0.034627
    16977.928700       0.038825
    16992.353400       0.041973
    17006.802700       0.045121
    17021.276600       0.052466
    17035.775100       0.056663
    17050.298400       0.062959
    17064.846400       0.068206
    17079.419300       0.076600
    17094.017100       0.088143
    17108.639900       0.091291
    17123.287700       0.105981
    17137.960600       0.117524
    17152.658700       0.129066
    17167.382000       0.150052
    17182.130600       0.168940
    17196.904600       0.188877
    17211.704000       0.210913
    17226.528900       0.237146
    17241.379300       0.266527
    17256.255400       0.300105
    17271.157200       0.334732
    17286.084700       0.384050
    17301.038100       0.418678
    17316.017300       0.464848
    17331.022500       0.506821
    17346.053800       0.556139
    17361.111100       0.604407
    17376.194600       0.636936
    17391.304300       0.675761
    17406.440400       0.729276
    17421.602800       0.747114
    17436.791600       0.814271
    17452.007000       0.833158
    17467.248900       0.835257
    17482.517500       0.865687
    17497.812800       0.892970
    17513.134900       0.900315
    17528.483800       0.905561
    17543.859600       0.931794
    17559.262500       0.926548
    17574.692400       0.928646
    17590.149500       0.925498
    17605.633800       0.932844
    17621.145400       0.924449
    17636.684300       0.948583
    17652.250700       0.946485
    17667.844500       0.927597
    17683.466000       0.946485
    17699.115000       0.964323
    17714.791900       0.941238
    17730.496500       0.953830
    17746.228900       0.969570
    17761.989300       0.970619
    17777.777800       0.969570
    17793.594300       0.985310
    17809.439000       0.984260
    17825.311900       0.986359
    17841.213200       0.977964
    17857.142900       1.000000
    17873.101000       0.991605
    17889.087700       0.986359
    17905.103000       0.990556
    17921.147000       0.990556
    17937.219700       0.990556
    17953.321400       0.969570
    17969.451900       0.951731
    17985.611500       0.963274
    18001.800200       0.963274
    18018.018000       0.932844
    18034.265100       0.921301
    18050.541500       0.888772
    18066.847300       0.884575
    18083.182600       0.867786
    18099.547500       0.859391
    18115.942000       0.820567
    18132.366300       0.814271
    18148.820300       0.807975
    18165.304300       0.779643
    18181.818200       0.774397
    18198.362100       0.756558
    18214.936200       0.736621
    18231.540600       0.731375
    18248.175200       0.726128
    18264.840200       0.717733
    18281.535600       0.713536
    18298.261700       0.715635
    18315.018300       0.705142
    18331.805700       0.706191
    18348.623900       0.697796
    18365.472900       0.696747
    18382.352900       0.703043
    18399.264000       0.713536
    18416.206300       0.710388
    18433.179700       0.722980
    18450.184500       0.733473
    18467.220700       0.736621
    18484.288400       0.739769
    18501.387600       0.751312
    18518.518500       0.743966
    18535.681200       0.752361
    18552.875700       0.760756
    18570.102100       0.753410
    18587.360600       0.762854
    18604.651200       0.749213
    18621.973900       0.722980
    18639.329000       0.714586
    18656.716400       0.699895
    18674.136300       0.686254
    18691.588800       0.668416
    18709.073900       0.649528
    18726.591800       0.647429
    18744.142500       0.610703
    18761.726100       0.601259
    18779.342700       0.590766
    18796.992500       0.559286
    18814.675400       0.518363
    18832.391700       0.501574
    18850.141400       0.471144
    18867.924500       0.439664
    18885.741300       0.410283
    18903.591700       0.391396
    18921.475900       0.344176
    18939.393900       0.323190
    18957.346000       0.291710
    18975.332100       0.270724
    18993.352300       0.240294
    19011.406800       0.214061
    19029.495700       0.197272
    19047.619000       0.174187
    19065.776900       0.160546
    19083.969500       0.142707
    19102.196800       0.125918
    19120.458900       0.116474
    19138.756000       0.107030
    19157.088100       0.092340
    19175.455400       0.084995
    19193.858000       0.075551
    19212.295900       0.067156
    19230.769200       0.058762
    19249.278200       0.052466
    19267.822700       0.047219
    19286.403100       0.041973
    19305.019300       0.036726
    19323.671500       0.033578
    19342.359800       0.029381
    19361.084200       0.026233
    19379.845000       0.022036
    19398.642100       0.019937
    19417.475700       0.018888
    19436.346000       0.018888
    19455.252900       0.015740
    19474.196700       0.014690
    19493.177400       0.013641
    19512.195100       0.010493
    19531.250000       0.009444
    19550.342100       0.010493
    19569.471600       0.000000
    19588.638600       0.000000
